Folder: rgbd_imu_nav/rosbag_and_ulog/ulog_raw

Note: README.md
# rgbd_imu_nav

File: log_320_2023-12-6-19-09-12_battery_status_0.csv
timestamp,voltage_v,voltage_filtered_v,current_a,current_filtered_a,current_average_a,discharged_mah,remaining,scale,time_remaining_s,temperature,voltage_cell_v[0],voltage_cell_v[1],voltage_cell_v[2],voltage_cell_v[3],voltage_cell_v[4],voltage_cell_v[5],voltage_cell_v[6],voltage_cell_v[7],voltage_cell_v[8],voltage_cell_v[9],voltage_cell_v[10],voltage_cell_v[11],voltage_cell_v[12],voltage_cell_v[13],max_cell_voltage_delta,custom_faults,average_power,available_energy,full_charge_capacity_wh,remaining_capacity_wh,design_capacity,nominal_voltage,capacity,cycle_count,average_time_to_empty,serial_number,manufacture_date,state_of_health,max_error,interface_error,faults,average_time_to_full,over_discharge_count,connected,cell_count,source,priority,id,is_powering_off,is_required,warning,mode
3050105502,16.4499,16.3631,0.0,0.00065904,15.0,0.35868,1.0,1.0,nan,nan,0.0,0.0,0.0,0.0,0.0,0.0,0.0,0.0,0.0,0.0,0.0,0.0,0.0,0.0,0.0,0,0.0,0.0,0.0,0.0,0.0,0.0,0,0,0,0,0,0,0,0,0,0,0,1,4,0,0,1,0,0,0,0
3057905493,16.3912,16.367,0.0,6.89486e-07,15.0,0.359163,1.0,1.0,nan,nan,0.0,0.0,0.0,0.0,0.0,0.0,0.0,0.0,0.0,0.0,0.0,0.0,0.0,0.0,0.0,0,0.0,0.0,0.0,0.0,0.0,0.0,0,0,0,0,0,0,0,0,0,0,0,1,4,0,0,1,0,0,0,0
3065905368,16.3324,16.3448,0.0,7.288864e-05,15.0,0.359605,1.0,1.0,nan,nan,0.0,0.0,0.0,0.0,0.0,0.0,0.0,0.0,0.0,0.0,0.0,0.0,0.0,0.0,0.0,0,0.0,0.0,0.0,0.0,0.0,0.0,0,0,0,0,0,0,0,0,0,0,0,1,4,0,0,1,0,0,0,0
3073905316,16.4646,16.3655,0.0,0.000262066,15.0,0.3610121,1.0,1.0,nan,nan,0.0,0.0,0.0,0.0,0.0,0.0,0.0,0.0,0.0,0.0,0.0,0.0,0.0,0.0,0.0,0,0.0,0.0,0.0,0.0,0.0,0.0,0,0,0,0,0,0,0,0,0,0,0,1,4,0,0,1,0,0,0,0
3081905329,16.5087,16.36446,0.0,0.0002379031,15.0,0.362571,1.0,1.0,nan,nan,0.0,0.0,0.0,0.0,0.0,0.0,0.0,0.0,0.0,0.0,0.0,0.0,0.0,0.0,0.0,0,0.0,0.0,0.0,0.0,0.0,0.0,0,0,0,0,0,0,0,0,0,0,0,1,4,0,0,1,0,0,0,0
3089905321,16.259,16.3392,0.0,1.34443e-05,15.0,0.363328,1.0,1.0,nan,nan,0.0,0.0,0.0,0.0,0.0,0.0,0.0,0.0,0.0,0.0,0.0,0.0,0.0,0.0,0.0,0,0.0,0.0,0.0,0.0,0.0,0.0,0,0,0,0,0,0,0,0,0,0,0,1,4,0,0,1,0,0,0,0
3097905345,16.303,16.33888,0.0,0.0007696333,15.0,0.3640444,1.0,1.0,nan,nan,0.0,0.0,0.0,0.0,0.0,0.0,0.0,0.0,0.0,0.0,0.0,0.0,0.0,0.0,0.0,0,0.0,0.0,0.0,0.0,0.0,0.0,0,0,0,0,0,0,0,0,0,0,0,1,4,0,0,1,0,0,0,0
3105905340,16.27367,16.351,0.0,0.000275168,15.0,0.3649746,1.0,1.0,nan,nan,0.0,0.0,0.0,0.0,0.0,0.0,0.0,0.0,0.0,0.0,0.0,0.0,0.0,0.0,0.0,0,0.0,0.0,0.0,0.0,0.0,0.0,0,0,0,0,0,0,0,0,0,0,0,1,4,0,0,1,0,0,0,0
3113905318,16.4352,16.3518,0.0,8.2803e-05,15.0,0.366447,1.0,1.0,nan,nan,0.0,0.0,0.0,0.0,0.0,0.0,0.0,0.0,0.0,0.0,0.0,0.0,0.0,0.0,0.0,0,0.0,0.0,0.0,0.0,0.0,0.0,0,0,0,0,0,0,0,0,0,0,0,1,4,0,0,1,0,0,0,0
3121906230,16.2443,16.3524,0.0,7.404022e-09,15.0,0.366586,1.0,1.0,nan,nan,0.0,0.0,0.0,0.0,0.0,0.0,0.0,0.0,0.0,0.0,0.0,0.0,0.0,0.0,0.0,0,0.0,0.0,0.0,0.0,0.0,0.0,0,0,0,0,0,0,0,0,0,0,0,1,4,0,0,1,0,0,0,0
3129905476,16.27367,16.34207,0.0,0.0002149194,15.0,0.367514,1.0,1.0,nan,nan,0.0,0.0,0.0,0.0,0.0,0.0,0.0,0.0,0.0,0.0,0.0,0.0,0.0,0.0,0.0,0,0.0,0.0,0.0,0.0,0.0,0.0,0,0,0,0,0,0,0,0,0,0,0,1,4,0,0,1,0,0,0,0
3137905650,16.259,16.32527,0.0,1.41764e-05,15.0,0.367755,1.0,1.0,nan,nan,0.0,0.0,0.0,0.0,0.0,0.0,0.0,0.0,0.0,0.0,0.0,0.0,0.0,0.0,0.0,0,0.0,0.0,0.0,0.0,0.0,0.0,0,0,0,0,0,0,0,0,0,0,0,1,4,0,0,1,0,0,0,0
3145905323,16.27367,16.3438,0.0,0.0009971472,15.0,0.369904,1.0,1.0,nan,nan,0.0,0.0,0.0,0.0,0.0,0.0,0.0,0.0,0.0,0.0,0.0,0.0,0.0,0.0,0.0,0,0.0,0.0,0.0,0.0,0.0,0.0,0,0,0,0,0,0,0,0,0,0,0,1,4,0,0,1,0,0,0,0
3153906071,16.27367,16.3507,0.0,0.0004705503,15.0,0.370381,1.0,1.0,nan,nan,0.0,0.0,0.0,0.0,0.0,0.0,0.0,0.0,0.0,0.0,0.0,0.0,0.0,0.0,0.0,0,0.0,0.0,0.0,0.0,0.0,0.0,0,0,0,0,0,0,0,0,0,0,0,1,4,0,0,1,0,0,0,0
3161905409,16.1709,16.35472,0.0,0.000125687,15.0,0.371582,1.0,1.0,nan,nan,0.0,0.0,0.0,0.0,0.0,0.0,0.0,0.0,0.0,0.0,0.0,0.0,0.0,0.0,0.0,0,0.0,0.0,0.0,0.0,0.0,0.0,0,0,0,0,0,0,0,0,0,0,0,1,4,0,0,1,0,0,0,0
3169905461,16.538,16.337,0.0,0.000119638,15.0,0.3721385,1.0,1.0,nan,nan,0.0,0.0,0.0,0.0,0.0,0.0,0.0,0.0,0.0,0.0,0.0,0.0,0.0,0.0,0.0,0,0.0,0.0,0.0,0.0,0.0,0.0,0,0,0,0,0,0,0,0,0,0,0,1,4,0,0,1,0,0,0,0
3177905349,16.27367,16.3457,0.0,0.000456086,15.0,0.372517,1.0,1.0,nan,nan,0.0,0.0,0.0,0.0,0.0,0.0,0.0,0.0,0.0,0.0,0.0,0.0,0.0,0.0,0.0,0,0.0,0.0,0.0,0.0,0.0,0.0,0,0,0,0,0,0,0,0,0,0,0,1,4,0,0,1,0,0,0,0
3185905834,16.2296,16.3449,0.0,4.525096e-06,15.0,0.3732042,1.0,1.0,nan,nan,0.0,0.0,0.0,0.0,0.0,0.0,0.0,0.0,0.0,0.0,0.0,0.0,0.0,0.0,0.0,0,0.0,0.0,0.0,0.0,0.0,0.0,0,0,0,0,0,0,0,0,0,0,0,1,4,0,0,1,0,0,0,0
3193905328,16.1855,16.2841,0.0,4.72507e-09,15.0,0.3733362,1.0,1.0,nan,nan,0.0,0.0,0.0,0.0,0.0,0.0,0.0,0.0,0.0,0.0,0.0,0.0,0.0,0.0,0.0,0,0.0,0.0,0.0,0.0,0.0,0.0,0,0,0,0,0,0,0,0,0,0,0,1,4,0,0,1,0,0,0,0
3201905476,16.2443,16.31255,0.0,0.000152274,15.0,0.373612,1.0,1.0,nan,nan,0.0,0.0,0.0,0.0,0.0,0.0,0.0,0.0,0.0,0.0,0.0,0.0,0.0,0.0,0.0,0,0.0,0.0,0.0,0.0,0.0,0.0,0,0,0,0,0,0,0,0,0,0,0,1,4,0,0,1,0,0,0,0
3209905316,16.5234,16.3229,0.0,0.000297247,15.0,0.3743314,1.0,1.0,nan,nan,0.0,0.0,0.0,0.0,0.0,0.0,0.0,0.0,0.0,0.0,0.0,0.0,0.0,0.0,0.0,0,0.0,0.0,0.0,0.0,0.0,0.0,0,0,0,0,0,0,0,0,0,0,0,1,4,0,0,1,0,0,0,0
3217905997,16.4793,16.3267,0.0,0.0003445983,15.0,0.3746477,1.0,1.0,nan,nan,0.0,0.0,0.0,0.0,0.0,0.0,0.0,0.0,0.0,0.0,0.0,0.0,0.0,0.0,0.0,0,0.0,0.0,0.0,0.0,0.0,0.0,0,0,0,0,0,0,0,0,0,0,0,1,4,0,0,1,0,0,0,0
3225905539,16.259,16.2566,0.0,0.000423759,15.0,0.37503,1.0,1.0,nan,nan,0.0,0.0,0.0,0.0,0.0,0.0,0.0,0.0,0.0,0.0,0.0,0.0,0.0,0.0,0.0,0,0.0,0.0,0.0,0.0,0.0,0.0,0,0,0,0,0,0,0,0,0,0,0,1,4,0,0,1,0,0,0,0
3233905596,16.21492,16.2356,0.0,5.58447e-11,15.0,0.37503,1.0,1.0,nan,nan,0.0,0.0,0.0,0.0,0.0,0.0,0.0,0.0,0.0,0.0,0.0,0.0,0.0,0.0,0.0,0,0.0,0.0,0.0,0.0,0.0,0.0,0,0,0,0,0,0,0,0,0,0,0,1,4,0,0,1,0,0,0,0
3241905554,16.3471,16.2316,0.0,5.00895e-09,15.0,0.3751339,1.0,1.0,nan,nan,0.0,0.0,0.0,0.0,0.0,0.0,0.0,0.0,0.0,0.0,0.0,0.0,0.0,0.0,0.0,0,0.0,0.0,0.0,0.0,0.0,0.0,0,0,0,0,0,0,0,0,0,0,0,1,4,0,0,1,0,0,0,0
3249906083,16.4205,16.2346,0.0,2.418138e-08,15.0,0.3755119,1.0,1.0,nan,nan,0.0,0.0,0.0,0.0,0.0,0.0,0.0,0.0,0.0,0.0,0.0,0.0,0.0,0.0,0.0,0,0.0,0.0,0.0,0.0,0.0,0.0,0,0,0,0,0,0,0,0,0,0,0,1,4,0,0,1,0,0,0,0
3257905491,16.2443,16.2332,0.0,2.95061e-05,15.0,0.375816,1.0,1.0,nan,nan,0.0,0.0,0.0,0.0,0.0,0.0,0.0,0.0,0.0,0.0,0.0,0.0,0.0,0.0,0.0,0,0.0,0.0,0.0,0.0,0.0,0.0,0,0,0,0,0,0,0,0,0,0,0,1,4,0,0,1,0,0,0,0
3265905839,16.1709,16.2479,0.0,2.34193e-05,15.0,0.376424,1.0,1.0,nan,nan,0.0,0.0,0.0,0.0,0.0,0.0,0.0,0.0,0.0,0.0,0.0,0.0,0.0,0.0,0.0,0,0.0,0.0,0.0,0.0,0.0,0.0,0,0,0,0,0,0,0,0,0,0,0,1,4,0,0,1,0,0,0,0
3273905529,16.4499,16.23882,0.0124,0.000243138,15.0,0.376561,1.0,1.0,nan,nan,0.0,0.0,0.0,0.0,0.0,0.0,0.0,0.0,0.0,0.0,0.0,0.0,0.0,0.0,0.0,0,0.0,0.0,0.0,0.0,0.0,0.0,0,0,0,0,0,0,0,0,0,0,0,1,4,0,0,1,0,0,0,0
3281906152,16.15617,16.2208,0.0,8.398745e-07,15.0,0.3771126,1.0,1.0,nan,nan,0.0,0.0,0.0,0.0,0.0,0.0,0.0,0.0,0.0,0.0,0.0,0.0,0.0,0.0,0.0,0,0.0,0.0,0.0,0.0,0.0,0.0,0,0,0,0,0,0,0,0,0,0,0,1,4,0,0,1,0,0,0,0
3289905506,16.1268,16.2421,0.0,0.000199667,15.0,0.377414,1.0,1.0,nan,nan,0.0,0.0,0.0,0.0,0.0,0.0,0.0,0.0,0.0,0.0,0.0,0.0,0.0,0.0,0.0,0,0.0,0.0,0.0,0.0,0.0,0.0,0,0,0,0,0,0,0,0,0,0,0,1,4,0,0,1,0,0,0,0
3297905783,16.0827,16.2427,0.0,4.199235e-09,15.0,0.377621,1.0,1.0,nan,nan,0.0,0.0,0.0,0.0,0.0,0.0,0.0,0.0,0.0,0.0,0.0,0.0,0.0,0.0,0.0,0,0.0,0.0,0.0,0.0,0.0,0.0,0,0,0,0,0,0,0,0,0,0,0,1,4,0,0,1,0,0,0,0
3305905472,16.3618,16.2173,0.0,9.912489e-05,15.0,0.37796,1.0,1.0,nan,nan,0.0,0.0,0.0,0.0,0.0,0.0,0.0,0.0,0.0,0.0,0.0,0.0,0.0,0.0,0.0,0,0.0,0.0,0.0,0.0,0.0,0.0,0,0,0,0,0,0,0,0,0,0,0,1,4,0,0,1,0,0,0,0
3313906279,16.3177,16.2133,0.0,5.593688e-07,15.0,0.378476,1.0,1.0,nan,nan,0.0,0.0,0.0,0.0,0.0,0.0,0.0,0.0,0.0,0.0,0.0,0.0,0.0,0.0,0.0,0,0.0,0.0,0.0,0.0,0.0,0.0,0,0,0,0,0,0,0,0,0,0,0,1,4,0,0,1,0,0,0,0
3321905386,16.024,16.2184,0.0,0.0001345767,15.0,0.378923,1.0,1.0,nan,nan,0.0,0.0,0.0,0.0,0.0,0.0,0.0,0.0,0.0,0.0,0.0,0.0,0.0,0.0,0.0,0,0.0,0.0,0.0,0.0,0.0,0.0,0,0,0,0,0,0,0,0,0,0,0,1,4,0,0,1,0,0,0,0
3329905400,16.259,16.2252,0.0,8.719098e-09,15.0,0.3789849,1.0,1.0,nan,nan,0.0,0.0,0.0,0.0,0.0,0.0,0.0,0.0,0.0,0.0,0.0,0.0,0.0,0.0,0.0,0,0.0,0.0,0.0,0.0,0.0,0.0,0,0,0,0,0,0,0,0,0,0,0,1,4,0,0,1,0,0,0,0
3337905316,16.15617,16.231,0.0,6.11319e-06,15.0,0.379108,1.0,1.0,nan,nan,0.0,0.0,0.0,0.0,0.0,0.0,0.0,0.0,0.0,0.0,0.0,0.0,0.0,0.0,0.0,0,0.0,0.0,0.0,0.0,0.0,0.0,0,0,0,0,0,0,0,0,0,0,0,1,4,0,0,1,0,0,0,0
3345905353,16.03867,16.21025,0.0,5.20027e-09,15.0,0.3791421,1.0,1.0,nan,nan,0.0,0.0,0.0,0.0,0.0,0.0,0.0,0.0,0.0,0.0,0.0,0.0,0.0,0.0,0.0,0,0.0,0.0,0.0,0.0,0.0,0.0,0,0,0,0,0,0,0,0,0,0,0,1,4,0,0,1,0,0,0,0
3353905451,16.1268,16.21466,0.0,3.144347e-06,15.0,0.3796452,1.0,1.0,nan,nan,0.0,0.0,0.0,0.0,0.0,0.0,0.0,0.0,0.0,0.0,0.0,0.0,0.0,0.0,0.0,0,0.0,0.0,0.0,0.0,0.0,0.0,0,0,0,0,0,0,0,0,0,0,0,1,4,0,0,1,0,0,0,0
3361905327,16.1709,16.2164,0.0,4.6289e-08,15.0,0.379822,1.0,1.0,nan,nan,0.0,0.0,0.0,0.0,0.0,0.0,0.0,0.0,0.0,0.0,0.0,0.0,0.0,0.0,0.0,0,0.0,0.0,0.0,0.0,0.0,0.0,0,0,0,0,0,0,0,0,0,0,0,1,4,0,0,1,0,0,0,0
3369905317,16.4205,16.2111,0.0,9.016125e-06,15.0,0.3805,1.0,1.0,nan,nan,0.0,0.0,0.0,0.0,0.0,0.0,0.0,0.0,0.0,0.0,0.0,0.0,0.0,0.0,0.0,0,0.0,0.0,0.0,0.0,0.0,0.0,0,0,0,0,0,0,0,0,0,0,0,1,4,0,0,1,0,0,0,0
3377905368,16.15617,16.2088,0.0,0.000537544,15.0,0.380708,1.0,1.0,nan,nan,0.0,0.0,0.0,0.0,0.0,0.0,0.0,0.0,0.0,0.0,0.0,0.0,0.0,0.0,0.0,0,0.0,0.0,0.0,0.0,0.0,0.0,0,0,0,0,0,0,0,0,0,0,0,1,4,0,0,1,0,0,0,0
3385905974,16.1121,16.218,0.0,1.13497e-06,15.0,0.3808798,1.0,1.0,nan,nan,0.0,0.0,0.0,0.0,0.0,0.0,0.0,0.0,0.0,0.0,0.0,0.0,0.0,0.0,0.0,0,0.0,0.0,0.0,0.0,0.0,0.0,0,0,0,0,0,0,0,0,0,0,0,1,4,0,0,1,0,0,0,0
3393905345,16.2296,16.2756,0.0,0.0003136127,15.0,0.3812578,1.0,1.0,nan,nan,0.0,0.0,0.0,0.0,0.0,0.0,0.0,0.0,0.0,0.0,0.0,0.0,0.0,0.0,0.0,0,0.0,0.0,0.0,0.0,0.0,0.0,0,0,0,0,0,0,0,0,0,0,0,1,4,0,0,1,0,0,0,0
3401905320,16.3324,16.3151,0.0,0.000246544,15.0,0.381841,1.0,1.0,nan,nan,0.0,0.0,0.0,0.0,0.0,0.0,0.0,0.0,0.0,0.0,0.0,0.0,0.0,0.0,0.0,0,0.0,0.0,0.0,0.0,0.0,0.0,0,0,0,0,0,0,0,0,0,0,0,1,4,0,0,1,0,0,0,0
3409905317,16.15617,16.2903,0.0,0.000634943,15.0,0.38391,1.0,1.0,nan,nan,0.0,0.0,0.0,0.0,0.0,0.0,0.0,0.0,0.0,0.0,0.0,0.0,0.0,0.0,0.0,0,0.0,0.0,0.0,0.0,0.0,0.0,0,0,0,0,0,0,0,0,0,0,0,1,4,0,0,1,0,0,0,0
3417905324,16.2002,16.29321,0.0,6.66538e-05,15.0,0.3847344,1.0,1.0,nan,nan,0.0,0.0,0.0,0.0,0.0,0.0,0.0,0.0,0.0,0.0,0.0,0.0,0.0,0.0,0.0,0,0.0,0.0,0.0,0.0,0.0,0.0,0,0,0,0,0,0,0,0,0,0,0,1,4,0,0,1,0,0,0,0
3425906214,16.4646,16.2928,0.0,0.000399939,15.0,0.3856649,1.0,1.0,nan,nan,0.0,0.0,0.0,0.0,0.0,0.0,0.0,0.0,0.0,0.0,0.0,0.0,0.0,0.0,0.0,0,0.0,0.0,0.0,0.0,0.0,0.0,0,0,0,0,0,0,0,0,0,0,0,1,4,0,0,1,0,0,0,0
3433905316,16.4793,16.2961,0.0,4.085543e-05,15.0,0.386578,1.0,1.0,nan,nan,0.0,0.0,0.0,0.0,0.0,0.0,0.0,0.0,0.0,0.0,0.0,0.0,0.0,0.0,0.0,0,0.0,0.0,0.0,0.0,0.0,0.0,0,0,0,0,0,0,0,0,0,0,0,1,4,0,0,1,0,0,0,0
3441705328,16.2002,16.30268,0.0,1.28729e-05,15.0,0.387375,1.0,1.0,nan,nan,0.0,0.0,0.0,0.0,0.0,0.0,0.0,0.0,0.0,0.0,0.0,0.0,0.0,0.0,0.0,0,0.0,0.0,0.0,0.0,0.0,0.0,0,0,0,0,0,0,0,0,0,0,0,1,4,0,0,1,0,0,0,0